word,colour,stim_condition,correct_resp,trials.thisRepN,trials.thisTrialN,trials.thisN,trials.thisIndex,thisRow.t,notes,ins.started,text_2.started,ins.stopped,trial.started,fixation.started,text.started,key_resp.started,fixation.stopped,trial.stopped,key_resp.keys,key_resp.corr,key_resp.rt,key_resp.duration,thanks.started,text_3.started,text_3.stopped,thanks.stopped,participant,session,date,expName,psychopyVersion,frameRate,expStart
,,,,,,,,,,0.0072521,0.0121327,1.0049732,,,,,,,,,,,,,,,participant 2,1,2024-12-05_18h07.32.770,solo_experiment,2024.1.5,None,2024-12-05 18h07.44.053036 +0530
Sadness,red,I,r,0,0,0,12,1.0215519,,,,,1.0097412,1.0215519,1.5050459,1.5050459,1.5217272,3.5919052,r,1,2.0832409,None,,,,,participant 2,1,2024-12-05_18h07.32.770,solo_experiment,2024.1.5,None,2024-12-05 18h07.44.053036 +0530
Sadness,grey,C,g,0,1,1,2,3.605284,,,,,3.5927334,3.605284,4.1046105,4.1046105,4.1046105,5.4563179,g,1,1.3498543,None,,,,,participant 2,1,2024-12-05_18h07.32.770,solo_experiment,2024.1.5,None,2024-12-05 18h07.44.053036 +0530
Anger,red,C,r,0,2,2,3,5.470904,,,,,5.4566157,5.470904,5.9712371,5.9712371,5.9712371,6.9717917,r,1,0.9990188,None,,,,,participant 2,1,2024-12-05_18h07.32.770,solo_experiment,2024.1.5,None,2024-12-05 18h07.44.053036 +0530
Love,pink,C,p,0,3,3,1,6.9874417,,,,,6.9721827,6.9874417,7.470924,7.470924,7.4876553,8.537651,p,1,1.0548164,None,,,,,participant 2,1,2024-12-05_18h07.32.770,solo_experiment,2024.1.5,None,2024-12-05 18h07.44.053036 +0530
Anger,grey,I,g,0,4,4,15,8.554083,,,,,8.5379818,8.554083,9.0370211,9.0370211,9.0537699,10.9040414,g,1,1.8638825,None,,,,,participant 2,1,2024-12-05_18h07.32.770,solo_experiment,2024.1.5,None,2024-12-05 18h07.44.053036 +0530
Sadness,pink,I,p,0,5,5,11,10.9202924,,,,,10.904343,10.9202924,11.4036065,11.4036065,11.4205614,12.1708294,p,1,0.7565246,None,,,,,participant 2,1,2024-12-05_18h07.32.770,solo_experiment,2024.1.5,None,2024-12-05 18h07.44.053036 +0530
Sadness,yellow,I,y,0,6,6,10,12.1865558,,,,,12.1711708,12.1865558,12.6701392,12.6701392,12.6865478,13.9211191,y,1,1.2416002,None,,,,,participant 2,1,2024-12-05_18h07.32.770,solo_experiment,2024.1.5,None,2024-12-05 18h07.44.053036 +0530
Anger,pink,I,p,0,7,7,14,13.9367234,,,,,13.9216772,13.9367234,14.4367539,14.4367539,14.4367539,15.2549027,p,1,0.8001419,None,,,,,participant 2,1,2024-12-05_18h07.32.770,solo_experiment,2024.1.5,None,2024-12-05 18h07.44.053036 +0530
Joy ,pink,I,p,0,8,8,4,15.2705175,,,,,15.2552162,15.2705175,15.7696214,15.7696214,15.7696214,16.7536343,p,1,0.9725752,None,,,,,participant 2,1,2024-12-05_18h07.32.770,solo_experiment,2024.1.5,None,2024-12-05 18h07.44.053036 +0530
Joy ,red,I,r,0,9,9,6,16.7698408,,,,,16.753948,16.7698408,17.2532939,17.2532939,17.2696321,18.7201148,r,1,1.4512698,None,,,,,participant 2,1,2024-12-05_18h07.32.770,solo_experiment,2024.1.5,None,2024-12-05 18h07.44.053036 +0530
Love,yellow,I,y,0,10,10,7,18.7362242,,,,,18.720458,18.7362242,19.2358869,19.2358869,19.2358869,20.5031013,y,1,1.2610115,None,,,,,participant 2,1,2024-12-05_18h07.32.770,solo_experiment,2024.1.5,None,2024-12-05 18h07.44.053036 +0530
Joy,yellow,C,y,0,11,11,0,20.5194007,,,,,20.5034154,20.5194007,21.0026188,21.0026188,21.0191014,21.6035356,y,1,0.5992795,None,,,,,participant 2,1,2024-12-05_18h07.32.770,solo_experiment,2024.1.5,None,2024-12-05 18h07.44.053036 +0530
Anger,yellow,I,y,0,12,12,13,21.6188581,,,,,21.603856,21.6188581,22.1187878,22.1187878,22.1187878,22.686315,y,1,0.5514693,None,,,,,participant 2,1,2024-12-05_18h07.32.770,solo_experiment,2024.1.5,None,2024-12-05 18h07.44.053036 +0530
Love,grey,I,g,0,13,13,8,22.7026494,,,,,22.6867261,22.7026494,23.2026032,23.2026032,23.2026032,24.9189522,g,1,1.7074035,None,,,,,participant 2,1,2024-12-05_18h07.32.770,solo_experiment,2024.1.5,None,2024-12-05 18h07.44.053036 +0530
Love,red,I,r,0,14,14,9,24.9353412,,,,,24.9193041,24.9353412,25.4184091,25.4184091,25.434942,26.9520017,r,1,1.5179847,None,,,,,participant 2,1,2024-12-05_18h07.32.770,solo_experiment,2024.1.5,None,2024-12-05 18h07.44.053036 +0530
Joy,grey,I,g,0,15,15,5,26.9681197,,,,,26.9523059,26.9681197,27.451807,27.451807,27.4684366,28.1854272,r,0,0.730988,None,,,,,participant 2,1,2024-12-05_18h07.32.770,solo_experiment,2024.1.5,None,2024-12-05 18h07.44.053036 +0530
,,,,,,,,,,,,,,,,,,,,,,,28.1857029,28.2016962,29.2013423,29.1852424,participant 2,1,2024-12-05_18h07.32.770,solo_experiment,2024.1.5,None,2024-12-05 18h07.44.053036 +0530
,,,,,,,,,,,,,,,,,,,,,,,,,,,,,,,,,
,,,,,,,,,,,,,,,,,,,,,,,,,,,,,,,,,
,,,,,,,,,,,,,,,,,,,,,,,,,,,,,,,,,
,,,,,PARTICIPANT3,,,,,,,,,,,,,,,,,,,,,,,,,,,,
word,key_resp.rt,,mean_negative,,,mean_positive,,,,,,,,,,,,,,,,,,,,,,,,,,,
,,,,,,,,,,,,,,,,,,,,,,,,,,,,,,,,,
Sadness,2.0832409,,Sadness,2.0832409,,Love,1.0548164,,,,,,,,,,,,,,,,,,,,,,,,,,
Sadness,1.3498543,,Sadness,1.3498543,,Joy ,0.9725752,,,,,,,,,,,,,,,,,,,,,,,,,,
Anger,0.9990188,,Anger,0.9990188,,Joy ,1.4512698,,,,,,,,,,,,,,,,,,,,,,,,,,
Love,1.0548164,,Anger,1.8638825,,Love,1.2610115,,,,,,,,,,,,,,,,,,,,,,,,,,
Anger,1.8638825,,Sadness,0.7565246,,Joy,0.5992795,,,,,,,,,,,,,,,,,,,,,,,,,,
Sadness,0.7565246,,Sadness,1.2416002,,Love,1.7074035,,,,,,,,,,,,,,,,,,,,,,,,,,
Sadness,1.2416002,,Anger,0.8001419,,Love,1.5179847,,,,,,,,,,,,,,,,,,,,,,,,,,
Anger,0.8001419,,Anger,0.5514693,,Joy,0.730988,,,,,,,,,,,,,,,,,,,,,,,,,,
Joy ,0.9725752,,,,,,,,,,,,,,,,,,,,,,,,,,,,,,,,
Joy ,1.4512698,,mean_negative,1.205716563,,mean_positive,1.161916075,,,,,,,,,,,,,,,,,,,,,,,,,,
Love,1.2610115,,,,,,,,,,,,,,,,,,,,,,,,,,,,,,,,
Joy,0.5992795,,,,,,,,,,,,,,,,,,,,,,,,,,,,,,,,
Anger,0.5514693,,,,,,,,,,,,,,,,,,,,,,,,,,,,,,,,
Love,1.7074035,,,,,,,,,,,,,,,,,,,,,,,,,,,,,,,,
Love,1.5179847,,,,,,,,,,,,,,,,,,,,,,,,,,,,,,,,
Joy,0.730988,,,,,,,,,,,,,,,,,,,,,,,,,,,,,,,,
